Folder: datasets

Note: README.md
# datasets
This repo is where I am going to put some datasets that I will be using for demo and practice.

File: self compacting concrete works.csv
Cement (kg/m^3),Flyash(kg/m^3),Water/powder,Sand(kg/m^3),Coarse Aggregate(kg/m^3),Superplasticizer,Compressive Strength (Mpa)
465,85,0.41,910,590,0.97,35.19
161,241,0.35,866,864,0.3,35.8
417,153,0.32,828,759,0.306,61.82
270,180,0.44,801,842,0.27,60.3
330,220,0.32,700,899,0.69,60.9
275,275,0.37,796,937,0.74,63.32
321.75,173.25,0.36,862.45,729.18,0.545,32.26
83,468,0.41,624,794,1,14.64
275,275,0.34,691,880,1.25,57.9
350,150,0.36,707,901,0.795,71.62
350,150,0.35,900,600,1,37.18
350,162,0.406,768,840,0.18,51.7
350,111,0.39,831,900,0.32,61
348,224,0.305,783,848,0.9,58.6
380,145,0.35,788,854,0.205,73.5
380,192,0.349,931,621,0.21,67.8
344,147,0.35,814,881,0.116,48.75
300,200,0.35,923,663,0.7,54.69
420,80,0.33,785,860,0.299,56
300,200,0.4,845,860,0.818,26.5
160,240,0.39,886,900,0.35,44
237,133,0.43,960,900,0.5,46
198,232,0.36,872,900,0.5,52
290,100,0.45,913,837,0.8,42.7
250,160,0.55,742,837,0.5,24.1
290,220,0.45,625,837,0.2,32.9
250,160,0.55,742,837,0.5,26.4
210,220,0.65,562,837,0.2,10.2
250,160,0.55,746,837,1,26.7
220,180,0.39,916,900,0.35,49
193,158,0.39,1024,900,0.35,44
248,203,0.39,808,900,0.35,50
237,133,0.43,960,900,0.5,46
170,200,0.43,930,900,0.2,31
220,180,0.39,916,900,0.1,44
220,180,0.33,982,900,0.35,51
247,165,0.45,845,846,0.12,34.6
207,207,0.45,845,843,0.4,33.2
167,254,0.45,853,853,0,30.2
350,162,0.59,768,840,0.09,51.7
350,111,0.51,831,900,0.15,61
348,224,0.48,783,848,0.43,58.6
380,145,0.48,788,854,0.1,73.5
380,192,0.53,931,621,0.1,67.8
325,60,0.65,899,850,0.43,32.6
325,60,0.85,722,850,0.43,13.3
325,60,0.65,899,850,0.43,35.3
280,96,0.87,820,850,0.25,19.6
325,60,0.65,900,850,0.12,31.4
280,96,0.87,817,850,0.62,15.9
270,128,0.45,936,740,1,22.58
330.36,178.6,0.43,875.16,739.44,5.97,33.54
330.36,180.56,0.44,875.16,754.18,6.08,38.45
330.85,178.6,0.42,875.16,768.88,6.02,39.35
330.33,182.47,0.46,875.16,739.44,6.02,35.11
330.85,182.47,0.42,875.16,754.18,6.02,41.34
331.33,180.56,0.42,875.16,768.88,6.08,33.55
701,37,0.27,774,723,8.1,69.5
370,36,0.43,960,900,1.85,46
400,45,0.45,850,900,1.4,38
400,45,0.39,916,900,1.4,49
400,45,0.39,916,900,2.4,43
370,54,0.43,928,900,1.85,33
400,60,0.39,886,900,1.4,44
500,30,0.35,1008,621,6.75,57.3
500,50,0.35,988,608,6.75,40.8
500,60,0.3,997,614,6.75,39.9
550,20,0.44,813,855,3.2,52.1
550,40,0.44,700,899,7.43,60.9
450,30,0.32,789,926,2.77,44.8
450,40,0.43,780,917,2.77,41.3
450,50,0.43,770,907,2.5,37.1
550,15,0.41,910,590,10.73,35.2
550,30,0.43,910,590,9.91,30.7
550,15,0.33,865,762,8.8,74.2
550,15,0.41,910,590,9.9,26.5
550,15,0.41,910,590,10.72,35.5
550,2020,0.41,910,590,9.9,32
550,25,0.42,910,590,8.25,28
550,30,0.43,910,590,7.15,21
550,30,0.43,910,590,9.9,31
550,35,0.44,910,590,9.35,25
500,40,0.35,900,600,10.75,28.6
530,10,0.454,768,668,4.55,32.2
530,40,0.45,768,668,4.55,37.2
500,25,0.35,938,673,7.5,62
450,0,0.45,890,810,9.25,50
480,10,0.4,890,810,9.9,46
450,30,0.45,890,810,4.8,39
432,48,0.4,890,810,9.9,46
450,0,0.45,890,810,9.25,50
315,135,0.45,890,810,4.48,39
520,146,1.09,775,684,1.14,22.67
485,135,1.19,977,561,1.14,27.57
290,100,0.45,913,837,0.8,42.7
250,160,0.55,742,837,0.5,24.1
290,100,0.65,709,837,0.2,26.6
250,160,0.55,742,837,0.5,28.5
210,100,0.45,1066,837,0.2,54.3
210,220,0.65,562,837,0.2,10.2
250,160,0.55,746,837,1,26.7
148,137,0.55,830,1002,0.11,17.95
374.3,0,0.51,730.4,1013.2,0.02,39.06
350,162,0.41,768,840,0.18,51.7
148.1,136.6,0.56,830.1,1001.8,0.11,17.96
181.38,167.01,0.49,77.8,1055.6,0.04,27.77
420,80,0.33,785,860,0.3,56
333,0,0.58,842.6,931.2,0,31.97
207,207,0.45,845,843,0.4,33.2
417,153,0.32,828,759,0.31,61.82
350,133,0.38,815,883,0.34,55.3
475,0,0.48,594,932,0,39.29
318,126,0.47,737,861,0.02,40.06
540,0,0.32,613,1125,0,67.31
307,0,0.63,812,968,0,27.53
145,134,0.65,812,979,0.08,13.2
370,24,0.69,772,850,0.25,26.4
252.5,0,0.47,784.3,1111.6,0,19.77
325,60,0.65,899,850,0.43,32.6
251.37,118.27,0.52,754.3,1043.6,0.02,33.27
250,0,0.73,820,1100,0,20.87
249,60,0.68,1079,850,0.43,24
250,160,0.55,739,837,0,27.3
169,254,0.45,853,853,0,30.2
310,0,0.62,830,1012,0,27.83
251.37,118.27,0.51,757.73,1028.4,0.03,32.66
170,200,0.43,930,900,0.2,31
326,138,0.43,792,801,0.03,40.68
225,275,0.35,908,652,0.7,41.42
238,0,0.78,789,1119,0,17.54
238,159,0.4,844,844,0.29,37.8
290,100,0.65,709,837,0.2,26.6
302,0,0.67,817,974,0,21.75
255,0,0.75,945,889.8,0,18.75
322,0,0.63,800,974,0,25.18
350,90,0.48,852,923,0.14,46.5
331,0,0.58,821,1025,0,31.74
281,0,0.66,774,1104,0,22.44
325,60,0.65,898,850,0.43,34.3
300,0,0.61,795,1075,0,26.85
290,100,0.48,709,837,0,26.6
370,96,0.57,833,850,0.25,39.5
143.6,174.9,0.5,844.5,942.7,0.12,15.42
322,138,0.35,693.81,1085.2,0,58
250,160,0.55,742,837,0.5,25.3
325,0,0.57,783,1063,0,30.57
370,96,0.57,830,850,0.62,38.8
375,0,0.5,758,1038,0,38.21
339,0,0.55,754,1060,0,31.65
210,220,0.45,768,837,0.8,26.7
339.2,0,0.55,754.3,1069.2,0,31.9
280,96,0.87,820,850,0.25,19.6
237,133,0.36,1034,900,0.2,49
295.71,95.64,0.44,859.2,955.14,0.03,39.94
220,330,0.32,686,881,0.62,47.5
277.05,97.39,0.43,857.61,973.9,0.04,48.28
145,179,0.62,869,824,0.06,10.54
145.4,178.9,0.62,868.7,824,0.05,10.54
376,0,0.57,762.36,1003.5,0,31.97
250,160,0.38,919,837,0.5,36.3
428,257,0.27,788,736,0.02,74.5
200,0,0.9,845,1125,0,12.25
212,124.78,0.47,799.54,1085.4,0.04,38.5
325,120,0.75,755,850,0.43,32.2
500,101,0.32,820,753,0.38,70.93
382.5,0,0.49,739.3,1047.8,0.11,37.44
275.07,121.35,0.4,777.5,1053.6,0,51.33
313.3,113,0.42,688.7,1001.9,0.9,36.8
276,184,0.35,693.81,1085.2,0.05,56
440,110,0.32,714,917,0.29,69.8
477,53,0.45,768,668,0.05,32.19
397,0,0.47,734,1040,0.5,39.09
236,0,0.82,885,968,0,18.42
237,133,0.43,960,900,0.16,46
312.7,0,0.57,822.2,999.7,0.01,25.1
350,90,0.39,852,923,0.3,46.5
407,244,0.28,815,761,0.02,70.4
304.8,99.6,0.48,705.2,959.4,0.03,30.12
220,180,0.33,982,900,0.35,51
344,147,0.35,814,881,0.12,48.75
275,155,0.43,830,900,0.2,36
250,160,0.34,746,837,0.01,26.7
250,160,0.23,919,837,0.01,36.3
356,142,0.39,778,801,0.03,40.87
350,111,0.39,831,900,0.32,61
480,0,0.4,721,936,0,43.89
350,162,0.59,768,840,0.09,51.7
249.1,98.75,0.45,889.01,987.76,0.05,30.85
250,160,0.34,742,837,0.01,26
300,200,0.35,923,663,0.7,5.69
525,0,0.36,613,1125,0,55.94
250,275,0.34,842,772,0.23,39.62
368,92,0.35,693.81,1085.2,0,66
520,0,0.34,805,870,0.01,51.02
437,80,0.34,743,924,0.43,69.7
336,0,0.54,817,986,0.01,44.86
220,180,0.39,916,900,0.12,49
322.2,115.6,0.45,813.4,817.9,0.03,31.18
290.35,96.18,0.43,865,961.18,0.03,34.74
344,86,0.47,1135,630,0.01,50.37
412,138,0.33,887,752,0.02,73.4
375,125,0.35,938,673,0.7,60.8